pos,corr_resp,trials.thisRepN,trials.thisTrialN,trials.thisN,trials.thisIndex,trials_2.thisRepN,trials_2.thisTrialN,trials_2.thisN,trials_2.thisIndex,fixation.started,line1.started,line2.started,line3.started,line4.started,fixation.stopped,probe.started,key_resp.started,key_resp.keys,key_resp.corr,key_resp.rt,participant,session,date,expName,psychopyVersion,frameRate,
-50.0,x,0,0,0,0,,,,,126.47138230036944,127.43356010038406,127.43356010038406,127.43356010038406,127.43356010038406,127.48330330010504,128.43333439994603,128.43333439994603,x,1,1.4074937994591892,260426,001,2022-10-06_22h08.04.920,Tutorial_04,2022.2.2,60.218218746219776,
150.0,v,0,1,1,1,,,,,129.86695250030607,130.86667690007016,130.86667690007016,130.86667690007016,130.86667690007016,130.86667690007016,131.86665370035917,131.86665370035917,v,1,0.9628862999379635,260426,001,2022-10-06_22h08.04.920,Tutorial_04,2022.2.2,60.218218746219776,
50.0,c,0,2,2,2,,,,,132.85005540028214,133.84991460014135,133.84991460014135,133.84991460014135,133.84991460014135,133.84991460014135,134.8498496999964,134.8498496999964,c,1,0.6517705996520817,260426,001,2022-10-06_22h08.04.920,Tutorial_04,2022.2.2,60.218218746219776,
-150.0,z,0,3,3,3,,,,,135.53305860003456,136.5331524000503,136.5331524000503,136.5331524000503,136.5331524000503,136.5331524000503,137.53320319997147,137.53320319997147,z,1,0.7711015995591879,260426,001,2022-10-06_22h08.04.920,Tutorial_04,2022.2.2,60.218218746219776,
-50.0,x,1,0,4,0,,,,,138.33334570005536,139.33306090021506,139.33306090021506,139.33306090021506,139.33306090021506,139.33306090021506,140.33296910021454,140.33296910021454,x,1,0.8982416996732354,260426,001,2022-10-06_22h08.04.920,Tutorial_04,2022.2.2,60.218218746219776,
150.0,v,1,1,5,1,,,,,141.2497114003636,142.2494223001413,142.2494223001413,142.2494223001413,142.2494223001413,142.2494223001413,143.24967640032992,143.24967640032992,v,1,1.1603184998966753,260426,001,2022-10-06_22h08.04.920,Tutorial_04,2022.2.2,60.218218746219776,
50.0,c,1,2,6,2,,,,,144.4329134002328,145.4328518002294,145.4328518002294,145.4328518002294,145.4328518002294,145.4328518002294,146.66787200002,146.66787200002,c,1,0.7851044996641576,260426,001,2022-10-06_22h08.04.920,Tutorial_04,2022.2.2,60.218218746219776,
-150.0,z,1,3,7,3,,,,,147.48295560013503,148.48279670020565,148.48279670020565,148.48279670020565,148.48279670020565,148.48279670020565,149.48266640026122,149.48266640026122,z,1,0.625683999620378,260426,001,2022-10-06_22h08.04.920,Tutorial_04,2022.2.2,60.218218746219776,
-50.0,x,2,0,8,0,,,,,150.1326612001285,151.13267480023205,151.13267480023205,151.13267480023205,151.13267480023205,151.13267480023205,152.1327613000758,152.1327613000758,x,1,0.5679444000124931,260426,001,2022-10-06_22h08.04.920,Tutorial_04,2022.2.2,60.218218746219776,
150.0,v,2,1,9,1,,,,,152.73247659998015,153.73264790000394,153.73264790000394,153.73264790000394,153.73264790000394,153.73264790000394,154.73260330036283,154.73260330036283,v,1,1.0721881999634206,260426,001,2022-10-06_22h08.04.920,Tutorial_04,2022.2.2,60.218218746219776,
50.0,c,2,2,10,2,,,,,155.83232620032504,156.8324408000335,156.8324408000335,156.8324408000335,156.8324408000335,156.8324408000335,157.83232509996742,157.83232509996742,c,1,0.7387135992757976,260426,001,2022-10-06_22h08.04.920,Tutorial_04,2022.2.2,60.218218746219776,
-150.0,z,2,3,11,3,,,,,158.59913180023432,159.59883970022202,159.59883970022202,159.59883970022202,159.59883970022202,159.59883970022202,160.5999972000718,160.5999972000718,z,1,0.8238293994218111,260426,001,2022-10-06_22h08.04.920,Tutorial_04,2022.2.2,60.218218746219776,
-50.0,x,3,0,12,0,,,,,161.44869940029457,162.4486444001086,162.4486444001086,162.4486444001086,162.4486444001086,162.4486444001086,163.44860480027273,163.44860480027273,x,1,0.8219915996305645,260426,001,2022-10-06_22h08.04.920,Tutorial_04,2022.2.2,60.218218746219776,
150.0,v,3,1,13,1,,,,,164.29880350036547,165.2985467002727,165.2985467002727,165.2985467002727,165.2985467002727,165.2985467002727,166.29882030002773,166.29882030002773,v,1,0.49295279989019036,260426,001,2022-10-06_22h08.04.920,Tutorial_04,2022.2.2,60.218218746219776,
50.0,c,3,2,14,2,,,,,166.81529769999906,167.81543840002269,167.81543840002269,167.81543840002269,167.81543840002269,167.81543840002269,168.81524839997292,168.81524839997292,c,1,0.7357523995451629,260426,001,2022-10-06_22h08.04.920,Tutorial_04,2022.2.2,60.218218746219776,
-150.0,z,3,3,15,3,,,,,169.58175360038877,170.58173310011625,170.58173310011625,170.58173310011625,170.58173310011625,170.58173310011625,171.58166950009763,171.58166950009763,z,1,0.532974099740386,260426,001,2022-10-06_22h08.04.920,Tutorial_04,2022.2.2,60.218218746219776,
-50.0,x,4,0,16,0,,,,,172.1318812002428,173.1318581001833,173.1318581001833,173.1318581001833,173.1318581001833,173.1318581001833,174.1317010000348,174.1317010000348,x,1,1.077283799648285,260426,001,2022-10-06_22h08.04.920,Tutorial_04,2022.2.2,60.218218746219776,
150.0,v,4,1,17,1,,,,,175.23197170021012,176.23168880026788,176.23168880026788,176.23168880026788,176.23168880026788,176.23168880026788,177.23311410006136,177.23311410006136,v,1,0.8679355997592211,260426,001,2022-10-06_22h08.04.920,Tutorial_04,2022.2.2,60.218218746219776,
50.0,c,4,2,18,2,,,,,178.13166680000722,179.13165490003303,179.13165490003303,179.13165490003303,179.13165490003303,179.13165490003303,180.1316713001579,180.1316713001579,c,1,0.7304377998225391,260426,001,2022-10-06_22h08.04.920,Tutorial_04,2022.2.2,60.218218746219776,
-150.0,z,4,3,19,3,,,,,180.8816972002387,181.88150510005653,181.88150510005653,181.88150510005653,181.88150510005653,181.88150510005653,182.88168780039996,182.88168780039996,z,1,0.6450073998421431,260426,001,2022-10-06_22h08.04.920,Tutorial_04,2022.2.2,60.218218746219776,
-50.0,x,5,0,20,0,,,,,183.54804640030488,184.54826320009306,184.54826320009306,184.54826320009306,184.54826320009306,184.54826320009306,185.54887360008433,185.54887360008433,x,1,0.6125542996451259,260426,001,2022-10-06_22h08.04.920,Tutorial_04,2022.2.2,60.218218746219776,
150.0,v,5,1,21,1,,,,,186.18139269994572,187.18123790016398,187.18123790016398,187.18123790016398,187.18123790016398,187.18123790016398,188.1813964000903,188.1813964000903,v,1,0.9219627995043993,260426,001,2022-10-06_22h08.04.920,Tutorial_04,2022.2.2,60.218218746219776,
50.0,c,5,2,22,2,,,,,189.13118610018864,190.1311880000867,190.1311880000867,190.1311880000867,190.1311880000867,190.1311880000867,191.13131229998544,191.13131229998544,c,1,0.7426577000878751,260426,001,2022-10-06_22h08.04.920,Tutorial_04,2022.2.2,60.218218746219776,
-150.0,z,5,3,23,3,,,,,191.8978161001578,192.89774070028216,192.89774070028216,192.89774070028216,192.89774070028216,192.89774070028216,193.8975951001048,193.8975951001048,z,1,0.6090459995903075,260426,001,2022-10-06_22h08.04.920,Tutorial_04,2022.2.2,60.218218746219776,
-50.0,x,6,0,24,0,,,,,194.5308954003267,195.53098550019786,195.53098550019786,195.53098550019786,195.53098550019786,195.53098550019786,196.53112210007384,196.53112210007384,x,1,0.8327476996928453,260426,001,2022-10-06_22h08.04.920,Tutorial_04,2022.2.2,60.218218746219776,
150.0,v,6,1,25,1,,,,,197.38101390004158,198.38086599996313,198.38086599996313,198.38086599996313,198.38086599996313,198.38086599996313,199.38090250035748,199.38090250035748,v,1,1.3339594998396933,260426,001,2022-10-06_22h08.04.920,Tutorial_04,2022.2.2,60.218218746219776,
50.0,c,6,2,26,2,,,,,200.74741060007364,201.74739330029115,201.74739330029115,201.74739330029115,201.74739330029115,201.74739330029115,202.7474263003096,202.7474263003096,c,1,0.6221681996248662,260426,001,2022-10-06_22h08.04.920,Tutorial_04,2022.2.2,60.218218746219776,
-150.0,z,6,3,27,3,,,,,203.39743780018762,204.3972614002414,204.3972614002414,204.3972614002414,204.3972614002414,204.3972614002414,205.39734130026773,205.39734130026773,z,1,0.43892369978129864,260426,001,2022-10-06_22h08.04.920,Tutorial_04,2022.2.2,60.218218746219776,
-50.0,x,7,0,28,0,,,,,205.86400260031223,206.864039900247,206.864039900247,206.864039900247,206.864039900247,206.864039900247,207.86376220034435,207.86376220034435,x,1,0.6322913994081318,260426,001,2022-10-06_22h08.04.920,Tutorial_04,2022.2.2,60.218218746219776,
150.0,v,7,1,29,1,,,,,208.51370060024783,209.5135695002973,209.5135695002973,209.5135695002973,209.5135695002973,209.5135695002973,210.51362580014393,210.51362580014393,v,1,0.859716999810189,260426,001,2022-10-06_22h08.04.920,Tutorial_04,2022.2.2,60.218218746219776,
50.0,c,7,2,30,2,,,,,211.39706530002877,212.39698810037225,212.39698810037225,212.39698810037225,212.39698810037225,212.39698810037225,213.39740630006418,213.39740630006418,c,1,0.6708529996685684,260426,001,2022-10-06_22h08.04.920,Tutorial_04,2022.2.2,60.218218746219776,
-150.0,z,7,3,31,3,,,,,214.09700670000166,215.09712080005556,215.09712080005556,215.09712080005556,215.09712080005556,215.09712080005556,216.09695710008964,216.09695710008964,z,1,0.5555496998131275,260426,001,2022-10-06_22h08.04.920,Tutorial_04,2022.2.2,60.218218746219776,
-50.0,x,8,0,32,0,,,,,216.68026960035786,217.68022510036826,217.68022510036826,217.68022510036826,217.68022510036826,217.68022510036826,218.68008350022137,218.68008350022137,x,1,0.5760848997160792,260426,001,2022-10-06_22h08.04.920,Tutorial_04,2022.2.2,60.218218746219776,
150.0,v,8,1,33,1,,,,,219.2801600000821,220.28010990004987,220.28010990004987,220.28010990004987,220.28010990004987,220.28010990004987,221.28002460021526,221.28002460021526,v,1,0.726961899548769,260426,001,2022-10-06_22h08.04.920,Tutorial_04,2022.2.2,60.218218746219776,
50.0,c,8,2,34,2,,,,,222.029779500328,223.02974180039018,223.02974180039018,223.02974180039018,223.02974180039018,223.02974180039018,224.029763400089,224.029763400089,c,1,0.528972199652344,260426,001,2022-10-06_22h08.04.920,Tutorial_04,2022.2.2,60.218218746219776,
-150.0,z,8,3,35,3,,,,,224.5797129003331,225.58004080038518,225.58004080038518,225.58004080038518,225.58004080038518,225.58004080038518,226.5799496001564,226.5799496001564,z,1,0.3957482995465398,260426,001,2022-10-06_22h08.04.920,Tutorial_04,2022.2.2,60.218218746219776,
-50.0,x,9,0,36,0,,,,,226.9964289003983,227.9966160999611,227.9966160999611,227.9966160999611,227.9966160999611,227.9966160999611,228.996427600272,228.996427600272,x,1,0.7555172992870212,260426,001,2022-10-06_22h08.04.920,Tutorial_04,2022.2.2,60.218218746219776,
150.0,v,9,1,37,1,,,,,229.7794853001833,230.77969010034576,230.77969010034576,230.77969010034576,230.77969010034576,230.77969010034576,231.779687799979,231.779687799979,v,1,0.7064730995334685,260426,001,2022-10-06_22h08.04.920,Tutorial_04,2022.2.2,60.218218746219776,
50.0,c,9,2,38,2,,,,,232.5131380003877,233.51280340040103,233.51280340040103,233.51280340040103,233.51280340040103,233.51280340040103,234.51279760012403,234.51279760012403,c,1,0.47840349981561303,260426,001,2022-10-06_22h08.04.920,Tutorial_04,2022.2.2,60.218218746219776,
-150.0,z,9,3,39,3,,,,,235.0128875002265,236.0139538999647,236.0139538999647,236.0139538999647,236.0139538999647,236.0139538999647,237.01277060015127,237.01277060015127,z,1,0.4095672997646034,260426,001,2022-10-06_22h08.04.920,Tutorial_04,2022.2.2,60.218218746219776,
-50.0,x,10,0,40,0,,,,,237.44607720011845,238.44600039999932,238.44600039999932,238.44600039999932,238.44600039999932,238.44600039999932,239.44603720027953,239.44603720027953,x,1,0.6382501996122301,260426,001,2022-10-06_22h08.04.920,Tutorial_04,2022.2.2,60.218218746219776,
150.0,v,10,1,41,1,,,,,240.11249160021544,241.11283770017326,241.11283770017326,241.11283770017326,241.11283770017326,241.11283770017326,242.11265640007332,242.11265640007332,v,1,0.700879099778831,260426,001,2022-10-06_22h08.04.920,Tutorial_04,2022.2.2,60.218218746219776,
50.0,c,10,2,42,2,,,,,242.84598920028657,243.84578029997647,243.84578029997647,243.84578029997647,243.84578029997647,243.84578029997647,244.84580769995227,244.84580769995227,c,1,0.6526369997300208,260426,001,2022-10-06_22h08.04.920,Tutorial_04,2022.2.2,60.218218746219776,
-150.0,z,10,3,43,3,,,,,245.52899230038747,246.52917300025,246.52917300025,246.52917300025,246.52917300025,246.52917300025,247.5290345000103,247.5290345000103,z,1,0.4648699997924268,260426,001,2022-10-06_22h08.04.920,Tutorial_04,2022.2.2,60.218218746219776,
-50.0,x,11,0,44,0,,,,,248.01251140004024,249.0124878003262,249.0124878003262,249.0124878003262,249.0124878003262,249.0124878003262,250.01236970024183,250.01236970024183,x,1,0.5674137999303639,260426,001,2022-10-06_22h08.04.920,Tutorial_04,2022.2.2,60.218218746219776,
150.0,v,11,1,45,1,,,,,250.61233430029824,251.61228900030255,251.61228900030255,251.61228900030255,251.61228900030255,251.61228900030255,252.61240300023928,252.61240300023928,v,1,0.7790685999207199,260426,001,2022-10-06_22h08.04.920,Tutorial_04,2022.2.2,60.218218746219776,
50.0,c,11,2,46,2,,,,,253.412053800188,254.41273630037904,254.41273630037904,254.41273630037904,254.41273630037904,254.41273630037904,255.41200430039316,255.41200430039316,v,0,0.6433987994678319,260426,001,2022-10-06_22h08.04.920,Tutorial_04,2022.2.2,60.218218746219776,
-150.0,z,11,3,47,3,,,,,256.07873610034585,257.06207840004936,257.06207840004936,257.06207840004936,257.06207840004936,257.0786758000031,258.07870740024373,258.07870740024373,z,1,0.499936499632895,260426,001,2022-10-06_22h08.04.920,Tutorial_04,2022.2.2,60.218218746219776,
-50.0,x,12,0,48,0,,,,,258.59531630016863,259.59547709999606,259.59547709999606,259.59547709999606,259.59547709999606,259.59547709999606,260.59528260026127,260.59528260026127,x,1,0.6792913996614516,260426,001,2022-10-06_22h08.04.920,Tutorial_04,2022.2.2,60.218218746219776,
150.0,v,12,1,49,1,,,,,261.2952815000899,262.29517590021715,262.29517590021715,262.29517590021715,262.29517590021715,262.29517590021715,263.2951238001697,263.2951238001697,v,1,0.48597299959510565,260426,001,2022-10-06_22h08.04.920,Tutorial_04,2022.2.2,60.218218746219776,
50.0,c,12,2,50,2,,,,,263.8118217000738,264.8115834002383,264.8115834002383,264.8115834002383,264.8115834002383,264.8115834002383,265.8115368001163,265.8115368001163,c,1,0.3972672997042537,260426,001,2022-10-06_22h08.04.920,Tutorial_04,2022.2.2,60.218218746219776,
-150.0,z,12,3,51,3,,,,,266.2285539000295,267.228228200227,267.228228200227,267.228228200227,267.228228200227,267.228228200227,268.2283817999996,268.2283817999996,z,1,0.4795196997001767,260426,001,2022-10-06_22h08.04.920,Tutorial_04,2022.2.2,60.218218746219776,
-50.0,x,13,0,52,0,,,,,268.72821310022846,269.72832900006324,269.72832900006324,269.72832900006324,269.72832900006324,269.72832900006324,270.72816340019926,270.72816340019926,x,1,0.5351573997177184,260426,001,2022-10-06_22h08.04.920,Tutorial_04,2022.2.2,60.218218746219776,
150.0,v,13,1,53,1,,,,,271.2948058000766,272.2948354999535,272.2948354999535,272.2948354999535,272.2948354999535,272.2948354999535,273.2948293001391,273.2948293001391,v,1,0.7841532998718321,260426,001,2022-10-06_22h08.04.920,Tutorial_04,2022.2.2,60.218218746219776,
50.0,c,13,2,54,2,,,,,274.11139720026404,275.11123390030116,275.11123390030116,275.11123390030116,275.11123390030116,275.11123390030116,276.11130890017375,276.11130890017375,c,1,0.7837425996549428,260426,001,2022-10-06_22h08.04.920,Tutorial_04,2022.2.2,60.218218746219776,
-150.0,z,13,3,55,3,,,,,276.91134890029207,277.91124980011955,277.91124980011955,277.91124980011955,277.91124980011955,277.91124980011955,278.91115509998053,278.91115509998053,z,1,0.6757145994342864,260426,001,2022-10-06_22h08.04.920,Tutorial_04,2022.2.2,60.218218746219776,
-50.0,x,14,0,56,0,,,,,279.6111225001514,280.61122169997543,280.61122169997543,280.61122169997543,280.61122169997543,280.61122169997543,281.6111173001118,281.6111173001118,x,1,0.5567250996828079,260426,001,2022-10-06_22h08.04.920,Tutorial_04,2022.2.2,60.218218746219776,
150.0,v,14,1,57,1,,,,,282.1947620003484,283.1943117999472,283.1943117999472,283.1943117999472,283.1943117999472,283.1943117999472,284.1943891001865,284.1943891001865,v,1,0.5141576994210482,260426,001,2022-10-06_22h08.04.920,Tutorial_04,2022.2.2,60.218218746219776,
50.0,c,14,2,58,2,,,,,284.7275640000589,285.7276758002117,285.7276758002117,285.7276758002117,285.7276758002117,285.7276758002117,286.7276537003927,286.7276537003927,c,1,1.2264768998138607,260426,001,2022-10-06_22h08.04.920,Tutorial_04,2022.2.2,60.218218746219776,
-150.0,z,14,3,59,3,,,,,287.9773632003926,288.9774794001132,288.9774794001132,288.9774794001132,288.9774794001132,288.9774794001132,289.9773416002281,289.9773416002281,z,1,0.8380100997164845,260426,001,2022-10-06_22h08.04.920,Tutorial_04,2022.2.2,60.218218746219776,
-50.0,x,15,0,60,0,,,,,290.84408700000495,291.84411519998685,291.84411519998685,291.84411519998685,291.84411519998685,291.84411519998685,292.8440434001386,292.8440434001386,x,1,0.6246677995659411,260426,001,2022-10-06_22h08.04.920,Tutorial_04,2022.2.2,60.218218746219776,
150.0,v,15,1,61,1,,,,,293.4939867001958,294.4939972003922,294.4939972003922,294.4939972003922,294.4939972003922,294.4939972003922,295.49395740032196,295.49395740032196,v,1,0.7812361996620893,260426,001,2022-10-06_22h08.04.920,Tutorial_04,2022.2.2,60.218218746219776,
50.0,c,15,2,62,2,,,,,296.29390890011564,297.29400650039315,297.29400650039315,297.29400650039315,297.29400650039315,297.29400650039315,298.2938582999632,298.2938582999632,c,1,0.786614999640733,260426,001,2022-10-06_22h08.04.920,Tutorial_04,2022.2.2,60.218218746219776,
-150.0,z,15,3,63,3,,,,,299.1108793001622,300.1105234003626,300.1105234003626,300.1105234003626,300.1105234003626,300.1105234003626,301.11030289996415,301.11030289996415,z,1,0.43792139971628785,260426,001,2022-10-06_22h08.04.920,Tutorial_04,2022.2.2,60.218218746219776,
-50.0,x,16,0,64,0,,,,,301.57693520002067,302.5769927003421,302.5769927003421,302.5769927003421,302.5769927003421,302.5769927003421,303.5769847002812,303.5769847002812,x,1,0.7863495997153223,260426,001,2022-10-06_22h08.04.920,Tutorial_04,2022.2.2,60.218218746219776,
150.0,v,16,1,65,1,,,,,304.39370610006154,305.39361419994384,305.39361419994384,305.39361419994384,305.39361419994384,305.39361419994384,306.3934503002092,306.3934503002092,v,1,0.5027373996563256,260426,001,2022-10-06_22h08.04.920,Tutorial_04,2022.2.2,60.218218746219776,
50.0,c,16,2,66,2,,,,,306.92681990005076,307.92698150034994,307.92698150034994,307.92698150034994,307.92698150034994,307.92698150034994,308.92701400024816,308.92701400024816,c,1,0.44396529952064157,260426,001,2022-10-06_22h08.04.920,Tutorial_04,2022.2.2,60.218218746219776,
-150.0,z,16,3,67,3,,,,,309.3934377999976,310.3935096003115,310.3935096003115,310.3935096003115,310.3935096003115,310.3935096003115,311.3933642003685,311.3933642003685,z,1,0.5097106997855008,260426,001,2022-10-06_22h08.04.920,Tutorial_04,2022.2.2,60.218218746219776,
-50.0,x,17,0,68,0,,,,,311.92668280005455,312.92666040034965,312.92666040034965,312.92666040034965,312.92666040034965,312.92666040034965,313.9266544999555,313.9266544999555,x,1,0.5700950995087624,260426,001,2022-10-06_22h08.04.920,Tutorial_04,2022.2.2,60.218218746219776,
150.0,v,17,1,69,1,,,,,314.52648810017854,315.5265914001502,315.5265914001502,315.5265914001502,315.5265914001502,315.5265914001502,316.5264061000198,316.5264061000198,v,1,1.0555012999102473,260426,001,2022-10-06_22h08.04.920,Tutorial_04,2022.2.2,60.218218746219776,
50.0,c,17,2,70,2,,,,,317.60973280016333,318.609678900335,318.609678900335,318.609678900335,318.609678900335,318.609678900335,319.6097478000447,319.6097478000447,c,1,0.768175299745053,260426,001,2022-10-06_22h08.04.920,Tutorial_04,2022.2.2,60.218218746219776,
-150.0,z,17,3,71,3,,,,,320.4096872000955,321.4097303003073,321.4097303003073,321.4097303003073,321.4097303003073,321.4097303003073,322.4095731000416,322.4095731000416,z,1,0.832477799616754,260426,001,2022-10-06_22h08.04.920,Tutorial_04,2022.2.2,60.218218746219776,
-50.0,x,18,0,72,0,,,,,323.2593531003222,324.26004520012066,324.26004520012066,324.26004520012066,324.26004520012066,324.26004520012066,325.25937780039385,325.25937780039385,x,1,0.6985168997198343,260426,001,2022-10-06_22h08.04.920,Tutorial_04,2022.2.2,60.218218746219776,
150.0,v,18,1,73,1,,,,,325.97606740007177,326.976009900216,326.976009900216,326.976009900216,326.976009900216,326.976009900216,327.97607790026814,327.97607790026814,v,1,0.8793456996791065,260426,001,2022-10-06_22h08.04.920,Tutorial_04,2022.2.2,60.218218746219776,
50.0,c,18,2,74,2,,,,,328.8760326001793,329.8760296003893,329.8760296003893,329.8760296003893,329.8760296003893,329.8760296003893,330.8759959000163,330.8759959000163,c,1,0.6940319994464517,260426,001,2022-10-06_22h08.04.920,Tutorial_04,2022.2.2,60.218218746219776,
-150.0,z,18,3,75,3,,,,,331.592359600123,332.59234460024163,332.59234460024163,332.59234460024163,332.59234460024163,332.59234460024163,333.59234900027514,333.59234900027514,z,1,0.42435669992119074,260426,001,2022-10-06_22h08.04.920,Tutorial_04,2022.2.2,60.218218746219776,
-50.0,x,19,0,76,0,,,,,334.0424343999475,335.04256460024044,335.04256460024044,335.04256460024044,335.04256460024044,335.04256460024044,336.04248880036175,336.04248880036175,x,1,0.558572799898684,260426,001,2022-10-06_22h08.04.920,Tutorial_04,2022.2.2,60.218218746219776,
150.0,v,19,1,77,1,,,,,336.6258472003974,337.62564540002495,337.62564540002495,337.62564540002495,337.62564540002495,337.62564540002495,338.6257147002034,338.6257147002034,v,1,0.8058451996184886,260426,001,2022-10-06_22h08.04.920,Tutorial_04,2022.2.2,60.218218746219776,
50.0,c,19,2,78,2,,,,,339.458940600045,340.45894400030375,340.45894400030375,340.45894400030375,340.45894400030375,340.45894400030375,341.45888090040535,341.45888090040535,c,1,0.6234658993780613,260426,001,2022-10-06_22h08.04.920,Tutorial_04,2022.2.2,60.218218746219776,
-150.0,z,19,3,79,3,,,,,342.10877180006355,343.10877100005746,343.10877100005746,343.10877100005746,343.10877100005746,343.10877100005746,344.10882800025865,344.10882800025865,z,1,0.3243175996467471,260426,001,2022-10-06_22h08.04.920,Tutorial_04,2022.2.2,60.218218746219776,
-50.0,x,20,0,80,0,,,,,344.4588294001296,345.4588199001737,345.4588199001737,345.4588199001737,345.4588199001737,345.4588199001737,346.4586583003402,346.4586583003402,x,1,0.5423503997735679,260426,001,2022-10-06_22h08.04.920,Tutorial_04,2022.2.2,60.218218746219776,
150.0,v,20,1,81,1,,,,,347.02554200030863,348.0253526000306,348.0253526000306,348.0253526000306,348.0253526000306,348.0253526000306,349.0253065000288,349.0253065000288,v,1,0.7313648997806013,260426,001,2022-10-06_22h08.04.920,Tutorial_04,2022.2.2,60.218218746219776,
50.0,c,20,2,82,2,,,,,349.775193199981,350.7752946000546,350.7752946000546,350.7752946000546,350.7752946000546,350.7752946000546,351.77531500020996,351.77531500020996,c,1,0.685451400000602,260426,001,2022-10-06_22h08.04.920,Tutorial_04,2022.2.2,60.218218746219776,
-150.0,z,20,3,83,3,,,,,352.49178740009665,353.4917224999517,353.4917224999517,353.4917224999517,353.4917224999517,353.4917224999517,354.49174239998683,354.49174239998683,z,1,0.436723499558866,260426,001,2022-10-06_22h08.04.920,Tutorial_04,2022.2.2,60.218218746219776,
-50.0,x,21,0,84,0,,,,,354.95811270037666,355.9581134002656,355.9581134002656,355.9581134002656,355.9581134002656,355.9581134002656,356.9583276002668,356.9583276002668,x,1,0.6860837996937335,260426,001,2022-10-06_22h08.04.920,Tutorial_04,2022.2.2,60.218218746219776,
150.0,v,21,1,85,1,,,,,357.67499900003895,358.6749007999897,358.6749007999897,358.6749007999897,358.6749007999897,358.6749007999897,359.6749454000965,359.6749454000965,v,1,0.6993503994308412,260426,001,2022-10-06_22h08.04.920,Tutorial_04,2022.2.2,60.218218746219776,
50.0,c,21,2,86,2,,,,,360.39155720034614,361.391637600027,361.391637600027,361.391637600027,361.391637600027,361.391637600027,362.3915419001132,362.3915419001132,c,1,0.850515800062567,260426,001,2022-10-06_22h08.04.920,Tutorial_04,2022.2.2,60.218218746219776,
-150.0,z,21,3,87,3,,,,,363.2580667003058,364.2591528999619,364.2591528999619,364.2591528999619,364.2591528999619,364.2591528999619,365.2579135000706,365.2579135000706,z,1,0.4628597996197641,260426,001,2022-10-06_22h08.04.920,Tutorial_04,2022.2.2,60.218218746219776,
-50.0,x,22,0,88,0,,,,,365.74140040017664,366.74128450034186,366.74128450034186,366.74128450034186,366.74128450034186,366.74128450034186,367.74129369994625,367.74129369994625,x,1,0.5668483995832503,260426,001,2022-10-06_22h08.04.920,Tutorial_04,2022.2.2,60.218218746219776,
150.0,v,22,1,89,1,,,,,368.3245601002127,369.32469810033217,369.32469810033217,369.32469810033217,369.32469810033217,369.32469810033217,370.3245562999509,370.3245562999509,v,1,0.9750672997906804,260426,001,2022-10-06_22h08.04.920,Tutorial_04,2022.2.2,60.218218746219776,
50.0,c,22,2,90,2,,,,,371.3245950001292,372.32455010013655,372.32455010013655,372.32455010013655,372.32455010013655,372.32455010013655,373.32426760019735,373.32426760019735,c,1,1.008726299740374,260426,001,2022-10-06_22h08.04.920,Tutorial_04,2022.2.2,60.218218746219776,
-150.0,z,22,3,91,3,,,,,374.3592330003157,375.35768100013956,375.35768100013956,375.35768100013956,375.35768100013956,375.3744128001854,376.3576430003159,376.3576430003159,z,1,0.5389064997434616,260426,001,2022-10-06_22h08.04.920,Tutorial_04,2022.2.2,60.218218746219776,
-50.0,x,23,0,92,0,,,,,376.92428630031645,377.9242321001366,377.9242321001366,377.9242321001366,377.9242321001366,377.9242321001366,378.9242939003743,378.9242939003743,x,1,0.870073199737817,260426,001,2022-10-06_22h08.04.920,Tutorial_04,2022.2.2,60.218218746219776,
150.0,v,23,1,93,1,,,,,379.824392599985,380.82423799997196,380.82423799997196,380.82423799997196,380.82423799997196,380.82423799997196,381.82412670040503,381.82412670040503,v,1,0.6294420999474823,260426,001,2022-10-06_22h08.04.920,Tutorial_04,2022.2.2,60.218218746219776,
50.0,c,23,2,94,2,,,,,382.4740778999403,383.4740245002322,383.4740245002322,383.4740245002322,383.4740245002322,383.4740245002322,384.45730620017275,384.45730620017275,c,1,0.83220319962129,260426,001,2022-10-06_22h08.04.920,Tutorial_04,2022.2.2,60.218218746219776,
-150.0,z,23,3,95,3,,,,,385.30702970037237,386.30697380006313,386.30697380006313,386.30697380006313,386.30697380006313,386.30697380006313,387.3069659001194,387.3069659001194,z,1,0.6860934998840094,260426,001,2022-10-06_22h08.04.920,Tutorial_04,2022.2.2,60.218218746219776,
-150.0,z,,,,,0,0,0,3,388.10987510019913,389.0237948000431,389.0237948000431,389.0237948000431,389.0237948000431,389.1238635000773,390.02366920001805,390.02366920001805,z,1,0.6045048995874822,260426,001,2022-10-06_22h08.04.920,Tutorial_04,2022.2.2,60.218218746219776,
-50.0,x,,,,,0,1,1,0,390.6569877001457,391.65708820009604,391.65708820009604,391.65708820009604,391.65708820009604,391.65708820009604,392.65735350036994,392.65735350036994,x,1,0.9603878995403647,260426,001,2022-10-06_22h08.04.920,Tutorial_04,2022.2.2,60.218218746219776,
-150.0,z,,,,,0,2,2,3,393.6402091002092,394.6401883000508,394.6401883000508,394.6401883000508,394.6401883000508,394.6401883000508,395.6401933999732,395.6401933999732,z,1,0.9160847999155521,260426,001,2022-10-06_22h08.04.920,Tutorial_04,2022.2.2,60.218218746219776,
-150.0,z,,,,,0,3,3,3,396.57345949998125,397.57364990003407,397.57364990003407,397.57364990003407,397.57364990003407,397.57364990003407,398.57352109998465,398.57352109998465,z,1,0.6936541995964944,260426,001,2022-10-06_22h08.04.920,Tutorial_04,2022.2.2,60.218218746219776,
50.0,corr_resp,,,,,1,0,4,2,399.289986200165,400.2900076000951,400.2900076000951,400.2900076000951,400.2900076000951,400.2900076000951,401.2899913000874,401.2899913000874,c,0,1.340740599669516,260426,001,2022-10-06_22h08.04.920,Tutorial_04,2022.2.2,60.218218746219776,
-150.0,z,,,,,1,1,5,3,402.6563365003094,403.65636230027303,403.65636230027303,403.65636230027303,403.65636230027303,403.65636230027303,404.6562886000611,404.6562886000611,z,1,0.7548539997078478,260426,001,2022-10-06_22h08.04.920,Tutorial_04,2022.2.2,60.218218746219776,
50.0,corr_resp,,,,,1,2,6,2,405.4397893003188,406.4233345002867,406.4233345002867,406.4233345002867,406.4233345002867,406.4397740000859,407.4397499002516,407.4397499002516,c,0,1.065885799471289,260426,001,2022-10-06_22h08.04.920,Tutorial_04,2022.2.2,60.218218746219776,
-150.0,z,,,,,1,3,7,3,408.5230427002534,409.52311590034515,409.52311590034515,409.52311590034515,409.52311590034515,409.52311590034515,410.52307910006493,410.52307910006493,z,1,0.590854499489069,260426,001,2022-10-06_22h08.04.920,Tutorial_04,2022.2.2,60.218218746219776,
150.0,v,,,,,2,0,8,1,411.13978460012004,412.1398251000792,412.1398251000792,412.1398251000792,412.1398251000792,412.1398251000792,413.13937610015273,413.13937610015273,v,1,1.0266727996058762,260426,001,2022-10-06_22h08.04.920,Tutorial_04,2022.2.2,60.218218746219776,
-150.0,z,,,,,2,1,9,3,414.1894885003567,415.1894097002223,415.1894097002223,415.1894097002223,415.1894097002223,415.1894097002223,416.1894330000505,416.1894330000505,z,1,0.5250576995313168,260426,001,2022-10-06_22h08.04.920,Tutorial_04,2022.2.2,60.218218746219776,
150.0,v,,,,,2,2,10,1,416.7392052002251,417.72245670016855,417.72245670016855,417.72245670016855,417.72245670016855,417.73915600031614,418.7224447000772,418.7224447000772,v,1,0.570204199757427,260426,001,2022-10-06_22h08.04.920,Tutorial_04,2022.2.2,60.218218746219776,
-50.0,x,,,,,2,3,11,0,419.322578900028,420.3226465000771,420.3226465000771,420.3226465000771,420.3226465000771,420.3226465000771,421.3226739000529,421.3226739000529,x,1,0.5337693993933499,260426,001,2022-10-06_22h08.04.920,Tutorial_04,2022.2.2,60.218218746219776,
-50.0,x,,,,,3,0,12,0,421.8726383000612,422.8725975002162,422.8725975002162,422.8725975002162,422.8725975002162,422.8725975002162,423.8724891003221,423.8724891003221,x,1,0.5050832997076213,260426,001,2022-10-06_22h08.04.920,Tutorial_04,2022.2.2,60.218218746219776,
-50.0,x,,,,,3,1,13,0,424.40583669999614,425.40583509998396,425.40583509998396,425.40583509998396,425.40583509998396,425.40583509998396,426.40573860006407,426.40573860006407,x,1,0.6774537996388972,260426,001,2022-10-06_22h08.04.920,Tutorial_04,2022.2.2,60.218218746219776,
-150.0,z,,,,,3,2,14,3,427.10579119995236,428.10580680007115,428.10580680007115,428.10580680007115,428.10580680007115,428.10580680007115,429.1057812999934,429.1057812999934,z,1,0.7595030996017158,260426,001,2022-10-06_22h08.04.920,Tutorial_04,2022.2.2,60.218218746219776,
50.0,corr_resp,,,,,3,3,15,2,429.8888862002641,430.8889483003877,430.8889483003877,430.8889483003877,430.8889483003877,430.8889483003877,431.8889840003103,431.8889840003103,c,0,0.9800108000636101,260426,001,2022-10-06_22h08.04.920,Tutorial_04,2022.2.2,60.218218746219776,
150.0,v,,,,,4,0,16,1,432.8889172002673,433.8888512002304,433.8888512002304,433.8888512002304,433.8888512002304,433.8888512002304,434.88897430012,434.88897430012,v,1,0.8833545995876193,260426,001,2022-10-06_22h08.04.920,Tutorial_04,2022.2.2,60.218218746219776,
50.0,corr_resp,,,,,4,1,17,2,435.7886835001409,436.7886463003233,436.7886463003233,436.7886463003233,436.7886463003233,436.7886463003233,437.7885418003425,437.7885418003425,c,0,0.7519859001040459,260426,001,2022-10-06_22h08.04.920,Tutorial_04,2022.2.2,60.218218746219776,
50.0,corr_resp,,,,,4,2,18,2,438.57193490024656,439.5718813999556,439.5718813999556,439.5718813999556,439.5718813999556,439.5718813999556,440.5718970000744,440.5718970000744,c,0,0.7119836993515491,260426,001,2022-10-06_22h08.04.920,Tutorial_04,2022.2.2,60.218218746219776,
-150.0,z,,,,,4,3,19,3,441.30516079999506,442.3052703002468,442.3052703002468,442.3052703002468,442.3052703002468,442.3052703002468,443.3051716000773,443.3051716000773,z,1,0.4606262994930148,260426,001,2022-10-06_22h08.04.920,Tutorial_04,2022.2.2,60.218218746219776,
-150.0,z,,,,,5,0,20,3,443.7884256001562,444.7882181000896,444.7882181000896,444.7882181000896,444.7882181000896,444.7882181000896,445.788210300263,445.788210300263,z,1,0.42502939933910966,260426,001,2022-10-06_22h08.04.920,Tutorial_04,2022.2.2,60.218218746219776,
-150.0,z,,,,,5,1,21,3,446.2383171999827,447.2384350001812,447.2384350001812,447.2384350001812,447.2384350001812,447.2384350001812,448.2382658002898,448.2382658002898,z,1,0.44508809968829155,260426,001,2022-10-06_22h08.04.920,Tutorial_04,2022.2.2,60.218218746219776,
150.0,v,,,,,5,2,22,1,448.704807900358,449.7048331000842,449.7048331000842,449.7048331000842,449.7048331000842,449.7048331000842,450.70493270037696,450.70493270037696,v,1,0.5329255992546678,260426,001,2022-10-06_22h08.04.920,Tutorial_04,2022.2.2,60.218218746219776,
-150.0,z,,,,,5,3,23,3,451.2548370002769,452.25521870004013,452.25521870004013,452.25521870004013,452.25521870004013,452.25521870004013,453.2547124000266,453.2547124000266,z,1,0.34516579983755946,260426,001,2022-10-06_22h08.04.920,Tutorial_04,2022.2.2,60.218218746219776,
-50.0,x,,,,,6,0,24,0,453.62145850015804,454.6214884002693,454.6214884002693,454.6214884002693,454.6214884002693,454.6214884002693,455.62141040014103,455.62141040014103,x,1,0.73004059959203,260426,001,2022-10-06_22h08.04.920,Tutorial_04,2022.2.2,60.218218746219776,
150.0,v,,,,,6,1,25,1,456.37137620011345,457.3546009003185,457.3546009003185,457.3546009003185,457.3546009003185,457.37130220001563,458.37131150020286,458.37131150020286,v,1,0.44838699977844954,260426,001,2022-10-06_22h08.04.920,Tutorial_04,2022.2.2,60.218218746219776,
-50.0,x,,,,,6,2,26,0,458.83787319995463,459.83778320020065,459.83778320020065,459.83778320020065,459.83778320020065,459.83778320020065,460.83770320005715,460.83770320005715,x,1,0.3712043995037675,260426,001,2022-10-06_22h08.04.920,Tutorial_04,2022.2.2,60.218218746219776,
-150.0,z,,,,,6,3,27,3,461.2378293001093,462.2377780000679,462.2377780000679,462.2377780000679,462.2377780000679,462.2377780000679,463.23771150037646,463.23771150037646,z,1,0.6556957997381687,260426,001,2022-10-06_22h08.04.920,Tutorial_04,2022.2.2,60.218218746219776,
150.0,v,,,,,7,0,28,1,463.921070500277,464.92109690001234,464.92109690001234,464.92109690001234,464.92109690001234,464.92109690001234,465.9209443000145,465.9209443000145,v,1,0.43516899971291423,260426,001,2022-10-06_22h08.04.920,Tutorial_04,2022.2.2,60.218218746219776,
150.0,v,,,,,7,1,29,1,466.38746360037476,467.3874738002196,467.3874738002196,467.3874738002196,467.3874738002196,467.3874738002196,468.38755180034786,468.38755180034786,v,1,0.42149419942870736,260426,001,2022-10-06_22h08.04.920,Tutorial_04,2022.2.2,60.218218746219776,
-50.0,x,,,,,7,2,30,0,468.837645099964,469.83763210009784,469.83763210009784,469.83763210009784,469.83763210009784,469.83763210009784,470.8375671003014,470.8375671003014,x,1,0.8779973993077874,260426,001,2022-10-06_22h08.04.920,Tutorial_04,2022.2.2,60.218218746219776,
-50.0,x,,,,,7,3,31,0,471.73733740020543,472.7381080002524,472.7381080002524,472.7381080002524,472.7381080002524,472.7381080002524,473.7375455000438,473.7375455000438,x,1,0.7183697996661067,260426,001,2022-10-06_22h08.04.920,Tutorial_04,2022.2.2,60.218218746219776,
150.0,v,,,,,8,0,32,1,474.4703744002618,475.4706250000745,475.4706250000745,475.4706250000745,475.4706250000745,475.4706250000745,476.4716512002051,476.4716512002051,v,1,0.39957299968227744,260426,001,2022-10-06_22h08.04.920,Tutorial_04,2022.2.2,60.218218746219776,
150.0,v,,,,,8,1,33,1,476.90375469997525,477.9038891000673,477.9038891000673,477.9038891000673,477.9038891000673,477.9038891000673,478.9038178003393,478.9038178003393,v,1,1.2850071997381747,260426,001,2022-10-06_22h08.04.920,Tutorial_04,2022.2.2,60.218218746219776,
-50.0,x,,,,,8,2,34,0,480.22038369998336,481.2218912001699,481.2218912001699,481.2218912001699,481.2218912001699,481.2218912001699,482.22029320010915,482.22029320010915,x,1,1.1562018995173275,260426,001,2022-10-06_22h08.04.920,Tutorial_04,2022.2.2,60.218218746219776,
50.0,corr_resp,,,,,8,3,35,2,483.40363140031695,484.4035942000337,484.4035942000337,484.4035942000337,484.4035942000337,484.4035942000337,485.40339790005237,485.40339790005237,c,0,1.1253549000248313,260426,001,2022-10-06_22h08.04.920,Tutorial_04,2022.2.2,60.218218746219776,
150.0,v,,,,,9,0,36,1,486.5534858000465,487.55352530023083,487.55352530023083,487.55352530023083,487.55352530023083,487.55352530023083,488.5535210003145,488.5535210003145,v,1,0.869181499350816,260426,001,2022-10-06_22h08.04.920,Tutorial_04,2022.2.2,60.218218746219776,
50.0,corr_resp,,,,,9,1,37,2,489.4538847003132,490.4534765002318,490.4534765002318,490.4534765002318,490.4534765002318,490.4534765002318,491.4532926999964,491.4532926999964,c,0,0.891123800072819,260426,001,2022-10-06_22h08.04.920,Tutorial_04,2022.2.2,60.218218746219776,
150.0,v,,,,,9,2,38,1,492.36988150002435,493.36990890000015,493.36990890000015,493.36990890000015,493.36990890000015,493.36990890000015,494.3698905003257,494.3698905003257,v,1,1.0858786995522678,260426,001,2022-10-06_22h08.04.920,Tutorial_04,2022.2.2,60.218218746219776,
-150.0,z,,,,,9,3,39,3,495.48641719995067,496.48660250008106,496.48660250008106,496.48660250008106,496.48660250008106,496.48660250008106,497.48649650020525,497.48649650020525,z,1,1.0698094996623695,260426,001,2022-10-06_22h08.04.920,Tutorial_04,2022.2.2,60.218218746219776,
50.0,corr_resp,,,,,10,0,40,2,498.5862815002911,499.58630560012534,499.58630560012534,499.58630560012534,499.58630560012534,499.58630560012534,500.5863243001513,500.5863243001513,c,0,1.149215899873525,260426,001,2022-10-06_22h08.04.920,Tutorial_04,2022.2.2,60.218218746219776,
-150.0,z,,,,,10,1,41,3,501.75294010015205,502.75298510026187,502.75298510026187,502.75298510026187,502.75298510026187,502.75298510026187,503.7529345001094,503.7529345001094,z,1,0.7783932997845113,260426,001,2022-10-06_22h08.04.920,Tutorial_04,2022.2.2,60.218218746219776,
150.0,v,,,,,10,2,42,1,504.5529237999581,505.5529808001593,505.5529808001593,505.5529808001593,505.5529808001593,505.5529808001593,506.5527484002523,506.5527484002523,v,1,0.8182889996096492,260426,001,2022-10-06_22h08.04.920,Tutorial_04,2022.2.2,60.218218746219776,
150.0,v,,,,,10,3,43,1,507.40274400031194,508.40285390010104,508.40285390010104,508.40285390010104,508.40285390010104,508.40285390010104,509.40264090010896,509.40264090010896,v,1,0.6942715994082391,260426,001,2022-10-06_22h08.04.920,Tutorial_04,2022.2.2,60.218218746219776,
-50.0,x,,,,,11,0,44,0,510.1195209999569,511.1194478003308,511.1194478003308,511.1194478003308,511.1194478003308,511.1194478003308,512.1192018999718,512.1192018999718,x,1,0.7133619994856417,260426,001,2022-10-06_22h08.04.920,Tutorial_04,2022.2.2,60.218218746219776,
-50.0,x,,,,,11,1,45,0,512.8524740999565,513.8523543002084,513.8523543002084,513.8523543002084,513.8523543002084,513.8523543002084,514.8524454999715,514.8524454999715,x,1,0.4435808998532593,260426,001,2022-10-06_22h08.04.920,Tutorial_04,2022.2.2,60.218218746219776,
150.0,v,,,,,11,2,46,1,515.3190896003507,516.319160300307,516.319160300307,516.319160300307,516.319160300307,516.319160300307,517.3190735001117,517.3190735001117,v,1,1.0992465997114778,260426,001,2022-10-06_22h08.04.920,Tutorial_04,2022.2.2,60.218218746219776,
-50.0,x,,,,,11,3,47,0,518.4356281002983,519.4356387001462,519.4356387001462,519.4356387001462,519.4356387001462,519.4356387001462,520.4353325003758,520.4353325003758,x,1,2.462994299829006,260426,001,2022-10-06_22h08.04.920,Tutorial_04,2022.2.2,60.218218746219776,
50.0,corr_resp,,,,,12,0,48,2,522.9188790000044,523.918871300295,523.918871300295,523.918871300295,523.918871300295,523.918871300295,524.9187711002305,524.9187711002305,c,0,0.9870691997930408,260426,001,2022-10-06_22h08.04.920,Tutorial_04,2022.2.2,60.218218746219776,
50.0,corr_resp,,,,,12,1,49,2,525.9354046001099,526.9353876002133,526.9353876002133,526.9353876002133,526.9353876002133,526.9353876002133,527.9352102000266,527.9352102000266,c,0,0.8034664993174374,260426,001,2022-10-06_22h08.04.920,Tutorial_04,2022.2.2,60.218218746219776,
-150.0,z,,,,,12,2,50,3,528.7683958001435,529.7684859000146,529.7684859000146,529.7684859000146,529.7684859000146,529.7684859000146,530.7685679001734,530.7685679001734,z,1,1.1057467996142805,260426,001,2022-10-06_22h08.04.920,Tutorial_04,2022.2.2,60.218218746219776,
50.0,corr_resp,,,,,12,3,51,2,531.901837900281,532.9018065002747,532.9018065002747,532.9018065002747,532.9018065002747,532.9018065002747,533.9016656000167,533.9016656000167,c,0,0.7147773997858167,260426,001,2022-10-06_22h08.04.920,Tutorial_04,2022.2.2,60.218218746219776,
-150.0,z,,,,,13,0,52,3,534.6350669004023,535.6350384000689,535.6350384000689,535.6350384000689,535.6350384000689,535.6350384000689,536.6349692000076,536.6349692000076,z,1,0.4815885997377336,260426,001,2022-10-06_22h08.04.920,Tutorial_04,2022.2.2,60.218218746219776,
150.0,v,,,,,13,1,53,1,537.1349237002432,538.1350253000855,538.1350253000855,538.1350253000855,538.1350253000855,538.1350253000855,539.1349145001732,539.1349145001732,v,1,1.7794379997067153,260426,001,2022-10-06_22h08.04.920,Tutorial_04,2022.2.2,60.218218746219776,
50.0,corr_resp,,,,,13,2,54,2,540.9347765003331,541.9347014999948,541.9347014999948,541.9347014999948,541.9347014999948,541.9347014999948,542.9350801999681,542.9350801999681,c,0,1.1229135994799435,260426,001,2022-10-06_22h08.04.920,Tutorial_04,2022.2.2,60.218218746219776,
150.0,v,,,,,13,3,55,1,544.0847324002534,545.0846350002103,545.0846350002103,545.0846350002103,545.0846350002103,545.0846350002103,546.0845315000042,546.0845315000042,v,1,0.6190169998444617,260426,001,2022-10-06_22h08.04.920,Tutorial_04,2022.2.2,60.218218746219776,
50.0,corr_resp,,,,,14,0,56,2,546.7344635003246,547.7346403002739,547.7346403002739,547.7346403002739,547.7346403002739,547.7346403002739,548.7342928000726,548.7342928000726,c,0,0.5908004995435476,260426,001,2022-10-06_22h08.04.920,Tutorial_04,2022.2.2,60.218218746219776,
-50.0,x,,,,,14,1,57,0,549.3512027002871,550.3512193001807,550.3512193001807,550.3512193001807,550.3512193001807,550.3512193001807,551.3509860001504,551.3509860001504,x,1,0.9638709994032979,260426,001,2022-10-06_22h08.04.920,Tutorial_04,2022.2.2,60.218218746219776,
50.0,corr_resp,,,,,14,2,58,2,552.334418500308,553.334506700281,553.334506700281,553.334506700281,553.334506700281,553.334506700281,554.3341692001559,554.3341692001559,c,0,0.674698599614203,260426,001,2022-10-06_22h08.04.920,Tutorial_04,2022.2.2,60.218218746219776,
50.0,corr_resp,,,,,14,3,59,2,555.0343343000859,556.0359654002823,556.0359654002823,556.0359654002823,556.0359654002823,556.0359654002823,557.0342144002207,557.0342144002207,c,0,0.5494049997068942,260426,001,2022-10-06_22h08.04.920,Tutorial_04,2022.2.2,60.218218746219776,
50.0,corr_resp,,,,,15,0,60,2,557.6006933003664,558.6008150000125,558.6008150000125,558.6008150000125,558.6008150000125,558.6008150000125,559.6019733999856,559.6019733999856,c,0,0.35897279996424913,260426,001,2022-10-06_22h08.04.920,Tutorial_04,2022.2.2,60.218218746219776,
150.0,v,,,,,15,1,61,1,559.9840957000852,560.9841008000076,560.9841008000076,560.9841008000076,560.9841008000076,560.9841008000076,561.9840885000303,561.9840885000303,v,1,0.7335399994626641,260426,001,2022-10-06_22h08.04.920,Tutorial_04,2022.2.2,60.218218746219776,
-150.0,z,,,,,15,2,62,3,562.7339387000538,563.7338835000992,563.7338835000992,563.7338835000992,563.7338835000992,563.7338835000992,564.7339519001544,564.7339519001544,z,1,0.5993634997867048,260426,001,2022-10-06_22h08.04.920,Tutorial_04,2022.2.2,60.218218746219776,
150.0,v,,,,,15,3,63,1,565.3505001999438,566.3506019003689,566.3506019003689,566.3506019003689,566.3506019003689,566.3506019003689,567.3505004001781,567.3505004001781,v,1,0.4568792995996773,260426,001,2022-10-06_22h08.04.920,Tutorial_04,2022.2.2,60.218218746219776,
150.0,v,,,,,16,0,64,1,567.8337755003013,568.8337365002371,568.8337365002371,568.8337365002371,568.8337365002371,568.8337365002371,569.8336541000754,569.8336541000754,v,1,0.7702843993902206,260426,001,2022-10-06_22h08.04.920,Tutorial_04,2022.2.2,60.218218746219776,
50.0,corr_resp,,,,,16,1,65,2,570.6336268000305,571.6336555001326,571.6336555001326,571.6336555001326,571.6336555001326,571.6336555001326,572.6169435000047,572.6169435000047,c,0,0.8829183001071215,260426,001,2022-10-06_22h08.04.920,Tutorial_04,2022.2.2,60.218218746219776,
50.0,corr_resp,,,,,16,2,66,2,573.5167881003581,574.5168584999628,574.5168584999628,574.5168584999628,574.5168584999628,574.5168584999628,575.5167937004007,575.5167937004007,c,0,2.1044676997698843,260426,001,2022-10-06_22h08.04.920,Tutorial_04,2022.2.2,60.218218746219776,
-50.0,x,,,,,16,3,67,0,577.6501335003413,578.6501263002865,578.6501263002865,578.6501263002865,578.6501263002865,578.6501263002865,579.6500069000758,579.6500069000758,x,1,0.9368293997831643,260426,001,2022-10-06_22h08.04.920,Tutorial_04,2022.2.2,60.218218746219776,
150.0,v,,,,,17,0,68,1,580.6165908002295,581.6166455000639,581.6166455000639,581.6166455000639,581.6166455000639,581.6166455000639,582.61656470038,582.61656470038,v,1,0.8949315999634564,260426,001,2022-10-06_22h08.04.920,Tutorial_04,2022.2.2,60.218218746219776,
50.0,corr_resp,,,,,17,1,69,2,583.5330751002766,584.5353804002516,584.5353804002516,584.5353804002516,584.5353804002516,584.5353804002516,585.5332320001908,585.5332320001908,c,0,0.7201487994752824,260426,001,2022-10-06_22h08.04.920,Tutorial_04,2022.2.2,60.218218746219776,
-50.0,x,,,,,17,2,70,0,586.2830616002902,587.2831027000211,587.2831027000211,587.2831027000211,587.2831027000211,587.2831027000211,588.2831320003606,588.2831320003606,x,1,0.40459719952195883,260426,001,2022-10-06_22h08.04.920,Tutorial_04,2022.2.2,60.218218746219776,
-50.0,x,,,,,17,3,71,0,588.7164598000236,589.716308800038,589.716308800038,589.716308800038,589.716308800038,589.716308800038,590.7164338002913,590.7164338002913,x,1,0.5290125999599695,260426,001,2022-10-06_22h08.04.920,Tutorial_04,2022.2.2,60.218218746219776,
-50.0,x,,,,,18,0,72,0,591.2662236001343,592.2674051001668,592.2674051001668,592.2674051001668,592.2674051001668,592.2674051001668,593.2660789000802,593.2660789000802,x,1,0.3262012000195682,260426,001,2022-10-06_22h08.04.920,Tutorial_04,2022.2.2,60.218218746219776,
-150.0,z,,,,,18,1,73,3,593.6162201003172,594.6162343001924,594.6162343001924,594.6162343001924,594.6162343001924,594.6162343001924,595.6161694000475,595.6161694000475,z,1,0.5967024997808039,260426,001,2022-10-06_22h08.04.920,Tutorial_04,2022.2.2,60.218218746219776,
-50.0,x,,,,,18,2,74,0,596.232782700099,597.2327336003073,597.2327336003073,597.2327336003073,597.2327336003073,597.2327336003073,598.2326257000677,598.2326257000677,x,1,0.9492684993892908,260426,001,2022-10-06_22h08.04.920,Tutorial_04,2022.2.2,60.218218746219776,
150.0,v,,,,,18,3,75,1,599.1991767999716,600.199247600045,600.199247600045,600.199247600045,600.199247600045,600.199247600045,601.1991515001282,601.1991515001282,v,1,0.994121799711138,260426,001,2022-10-06_22h08.04.920,Tutorial_04,2022.2.2,60.218218746219776,
-150.0,z,,,,,19,0,76,3,602.2158872000873,603.2158074001782,603.2158074001782,603.2158074001782,603.2158074001782,603.2158074001782,604.2158218002878,604.2158218002878,z,1,0.811570399440825,260426,001,2022-10-06_22h08.04.920,Tutorial_04,2022.2.2,60.218218746219776,
-50.0,x,,,,,19,1,77,0,605.0489865001291,606.049252900295,606.049252900295,606.049252900295,606.049252900295,606.049252900295,607.0491883000359,607.0491883000359,x,1,1.1200407994911075,260426,001,2022-10-06_22h08.04.920,Tutorial_04,2022.2.2,60.218218746219776,
-150.0,z,,,,,19,2,78,3,608.1990573001094,609.1989192003384,609.1989192003384,609.1989192003384,609.1989192003384,609.1989192003384,610.1990188001655,610.1990188001655,z,1,0.9127176995389163,260426,001,2022-10-06_22h08.04.920,Tutorial_04,2022.2.2,60.218218746219776,
50.0,corr_resp,,,,,19,3,79,2,611.1321962000802,612.1155165000819,612.1155165000819,612.1155165000819,612.1155165000819,612.1321129002608,613.1322746002115,613.1322746002115,c,0,1.1309810993261635,260426,001,2022-10-06_22h08.04.920,Tutorial_04,2022.2.2,60.218218746219776,
50.0,corr_resp,,,,,20,0,80,2,614.2820328003727,615.2821106002666,615.2821106002666,615.2821106002666,615.2821106002666,615.2821106002666,616.2820242000744,616.2820242000744,c,0,1.0646867994219065,260426,001,2022-10-06_22h08.04.920,Tutorial_04,2022.2.2,60.218218746219776,
-50.0,x,,,,,20,1,81,0,617.36530400021,618.3650489002466,618.3650489002466,618.3650489002466,618.3650489002466,618.3650489002466,619.3652872000821,619.3652872000821,x,1,0.5598098994232714,260426,001,2022-10-06_22h08.04.920,Tutorial_04,2022.2.2,60.218218746219776,
50.0,corr_resp,,,,,20,2,82,2,619.9487673002295,620.9485245002434,620.9485245002434,620.9485245002434,620.9485245002434,620.9485245002434,621.94900110038,621.94900110038,c,0,0.9187250998802483,260426,001,2022-10-06_22h08.04.920,Tutorial_04,2022.2.2,60.218218746219776,
-50.0,x,,,,,20,3,83,0,622.8983586002141,623.8983450001106,623.8983450001106,623.8983450001106,623.8983450001106,623.8983450001106,624.8983336002566,624.8983336002566,x,1,0.6506436998024583,260426,001,2022-10-06_22h08.04.920,Tutorial_04,2022.2.2,60.218218746219776,
150.0,v,,,,,21,0,84,1,625.5814284002408,626.5815230002627,626.5815230002627,626.5815230002627,626.5815230002627,626.5815230002627,627.5816273000091,627.5816273000091,c,0,0.5577838998287916,260426,001,2022-10-06_22h08.04.920,Tutorial_04,2022.2.2,60.218218746219776,
50.0,corr_resp,,,,,21,1,85,2,628.1648487001657,629.1481866003014,629.1481866003014,629.1481866003014,629.1481866003014,629.1649180999957,630.1647216002457,630.1647216002457,c,0,0.736778199672699,260426,001,2022-10-06_22h08.04.920,Tutorial_04,2022.2.2,60.218218746219776,
150.0,v,,,,,21,2,86,1,630.9314525001682,631.931324200239,631.931324200239,631.931324200239,631.931324200239,631.931324200239,632.9315231000073,632.9315231000073,c,0,5.649875499308109,260426,001,2022-10-06_22h08.04.920,Tutorial_04,2022.2.2,60.218218746219776,
-50.0,x,,,,,21,3,87,0,638.5978223001584,639.5978879001923,639.5978879001923,639.5978879001923,639.5978879001923,639.5978879001923,640.5978191001341,640.5978191001341,x,1,0.9031934998929501,260426,001,2022-10-06_22h08.04.920,Tutorial_04,2022.2.2,60.218218746219776,
-50.0,x,,,,,22,0,88,0,641.5311436001211,642.5309921000153,642.5309921000153,642.5309921000153,642.5309921000153,642.5309921000153,643.5310197002254,643.5310197002254,x,1,0.8766072997823358,260426,001,2022-10-06_22h08.04.920,Tutorial_04,2022.2.2,60.218218746219776,
-150.0,z,,,,,22,1,89,3,644.43108150037,645.430918500293,645.430918500293,645.430918500293,645.430918500293,645.430918500293,646.431032600347,646.431032600347,z,1,3.683939299546182,260426,001,2022-10-06_22h08.04.920,Tutorial_04,2022.2.2,60.218218746219776,
-150.0,z,,,,,22,2,90,3,650.147460500244,651.1473739002831,651.1473739002831,651.1473739002831,651.1473739002831,651.1473739002831,652.147139900364,652.147139900364,z,1,0.8063147994689643,260426,001,2022-10-06_22h08.04.920,Tutorial_04,2022.2.2,60.218218746219776,
-150.0,z,,,,,22,3,91,3,652.9804442999884,653.9804234001786,653.9804234001786,653.9804234001786,653.9804234001786,653.9804234001786,654.9803559002466,654.9803559002466,z,1,0.35168749978765845,260426,001,2022-10-06_22h08.04.920,Tutorial_04,2022.2.2,60.218218746219776,
150.0,v,,,,,23,0,92,1,655.3639402003027,656.3639724999666,656.3639724999666,656.3639724999666,656.3639724999666,656.3639724999666,657.3638403001241,657.3638403001241,v,1,1.150418299715966,260426,001,2022-10-06_22h08.04.920,Tutorial_04,2022.2.2,60.218218746219776,
-150.0,z,,,,,23,1,93,3,658.530369900167,659.5303547000512,659.5303547000512,659.5303547000512,659.5303547000512,659.5303547000512,660.5304549001157,660.5304549001157,z,1,0.8011692999862134,260426,001,2022-10-06_22h08.04.920,Tutorial_04,2022.2.2,60.218218746219776,
-50.0,x,,,,,23,2,94,0,661.3639956000261,662.3635548003949,662.3635548003949,662.3635548003949,662.3635548003949,662.3635548003949,663.3636040999554,663.3636040999554,x,1,1.0047467998228967,260426,001,2022-10-06_22h08.04.920,Tutorial_04,2022.2.2,60.218218746219776,
50.0,corr_resp,,,,,23,3,95,2,664.3968446003273,665.3968979003839,665.3968979003839,665.3968979003839,665.3968979003839,665.3968979003839,666.3968625003472,666.3968625003472,x,0,2.5503778997808695,260426,001,2022-10-06_22h08.04.920,Tutorial_04,2022.2.2,60.218218746219776,
